Folder: CNT_diameter

File: 20150512_JH_RawA.csv
100x_HR25-042_Raw_A_1,
Wavelength (nm),Abs
1340,0.38723
1336,0.391256
1332,0.395823
1328,0.401265
1324,0.406703
1320,0.412037
1316,0.416782
1312,0.420319
1308,0.423801
1304,0.427376
1300,0.431543
1296,0.436081
1292,0.440919
1288,0.446344
1284,0.452799
1280,0.459976
1276,0.465764
1272,0.467512
1268,0.464457
1264,0.45858
1260,0.452065
1256,0.445067
1252,0.436611
1248,0.426375
1244,0.414755
1240,0.403956
1236,0.395492
1232,0.390099
1228,0.387379
1224,0.386793
1220,0.387793
1216,0.390292
1212,0.394524
1208,0.399893
1204,0.404689
1200,0.407412
1196,0.40885
1192,0.410109
1188,0.412389
1184,0.415933
1180,0.418939
1176,0.417934
1172,0.412432
1168,0.405059
1164,0.398849
1160,0.395557
1156,0.395551
1152,0.398918
1148,0.404375
1144,0.410371
1140,0.415455
1136,0.420757
1132,0.426394
1128,0.430434
1124,0.430812
1120,0.427538
1116,0.421357
1112,0.412925
1108,0.402296
1104,0.389741
1100,0.377418
1096,0.367963
1092,0.361679
1088,0.358021
1084,0.356546
1080,0.356631
1076,0.357772
1072,0.359942
1068,0.363154
1064,0.367036
1060,0.369345
1056,0.368216
1052,0.366007
1048,0.364843
1044,0.365162
1040,0.366456
1036,0.369062
1032,0.3724
1028,0.373722
1024,0.371437
1020,0.367108
1016,0.363445
1012,0.361521
1008,0.361488
1004,0.362713
1000,0.364538
996,0.366546
992,0.369257
988,0.373553
984,0.378774
980,0.382108
976,0.38154
972,0.37884
968,0.377207
964,0.377663
960,0.378508
956,0.377741
952,0.375654
948,0.373556
944,0.372182
940,0.371574
936,0.371599
932,0.372008
928,0.373278
924,0.375013
920,0.376647
916,0.377306
912,0.377572
908,0.378362
904,0.380212
900,0.383324
896,0.387032
892,0.391437
888,0.396079
884,0.400676
880,0.405016
876,0.408753
872,0.411319
868,0.41304
864,0.413758
860,0.413605
856,0.413092
852,0.412578
848,0.41258
844,0.413559
840,0.41561
836,0.418868
832,0.422836
828,0.427862
824,0.433167
820,0.439063
816,0.444723
812,0.449639
808,0.453479
804,0.455871
800,0.456753
796,0.459231
792,0.455151
788,0.450454
784,0.445418
780,0.443505
776,0.443958
772,0.446371
768,0.449347
764,0.453049
760,0.456775
756,0.4612
752,0.466689
748,0.472893
744,0.479594
740,0.486827
736,0.493273
732,0.496322
728,0.496615
724,0.495232
720,0.489868
716,0.482674
712,0.47559
708,0.470655
704,0.468971
700,0.469389
696,0.472422
692,0.475571
688,0.478592
684,0.481215
680,0.483619
676,0.485839
672,0.487987
668,0.490641
664,0.494649
660,0.499929
656,0.506094
652,0.511702
648,0.514599
644,0.513482
640,0.509898
636,0.504798
632,0.499853
628,0.496162
624,0.496382
620,0.499344
616,0.504706
612,0.510516
608,0.515773
604,0.521298
600,0.526776
596,0.530847
592,0.532978
588,0.532245
584,0.530869
580,0.530541
576,0.533063
572,0.538689
568,0.544514
564,0.550679
560,0.556535
556,0.562115
552,0.564473
548,0.562845
544,0.558976
540,0.555467
536,0.553438
532,0.553969
528,0.557687
524,0.56345
520,0.570786
516,0.579091
512,0.587654
508,0.595763
504,0.600883
500,0.603147
496,0.60275
492,0.60308
488,0.606027
484,0.611441
480,0.617307
476,0.621888
472,0.626365
468,0.63243
464,0.64159
460,0.652593
456,0.664728
452,0.676255
448,0.68465
444,0.690749
440,0.693951
436,0.69686
432,0.703364
428,0.714254
424,0.728074
420,0.745721
416,0.764673
412,0.781394
408,0.789114
404,0.78926
400,0.791933